Folder: graphite-modeling/data/MQG/specific heat

Note: README.md
# graphite-modeling

Impact of surface properties on effective thermal conductivity of coated graphite

File: STAResults_Uncertainty_95CI.csv
Temperature_C,AvgThermDiff_mm2_s,Uncertai95CI_mm2_s,PercenUncertai95CI,RandomUncertai_salpha,SystemUncertai_balpha,Temperature_C,AvgSpeciHeat_J_gK,Uncertai95CI_J_gK,PercenUncertai95CI,RandomUncertai_scp,SystemUncertai_bcp,Thermal Conductivity (W/mK)
25,11.12775,1.32208,11.881,0.441833,0.166916,,,,,,,
40,10.7695,1.27802,11.867,0.427152,0.1615425,,,,,,,
60,10.34125,1.20602,11.6622,0.403607,0.155119,,,,,,,
80,9.93725,1.15418,11.6147,0.386325,0.149059,,,,,,,
100,9.558,1.12042,11.7223,0.374769,0.14337,,,,,,,
120,9.20975,1.06654,11.5805,0.357097,0.138146,,,,,,,
140,8.89225,1.05124,11.822,0.351411,0.133384,,,,,,,
160,8.60375,1.02066,11.863,0.341113,0.129056,,,,,,,
180,8.32275,0.978246,11.7539,0.327146,0.124841,,,,,,,
200,8.07575,0.96474,11.9461,0.322256,0.121136,,,,,,,
220,7.838,0.932781,11.9008,0.311661,0.11757,,,,,,,
240,7.6375,0.92057,12.0533,0.307296,0.1145625,,,,,,,
260,7.432,0.904241,12.1669,0.301637,0.11148,260,1.22171,0.0432572,3.54071,0.005294831,0.02137991,14.5276
280,7.247,0.881507,12.1637,0.294067,0.108705,280,1.25098,0.0443185,3.54269,0.005467849,0.0218922,14.5054
300,7.0745,0.855153,12.0878,0.285399,0.1061175,300,1.28051,0.0452121,3.5308,0.005305992,0.0224089,14.4943
320,6.91475,0.854569,12.3586,0.284759,0.103721,320,1.31405,0.0456881,3.4769,0.003759626,0.02299582,14.5381
340,6.76675,0.838926,12.3978,0.279486,0.101501,340,1.34113,0.0473003,3.52691,0.005453382,0.0234697,14.5201
360,6.629,0.818901,12.3533,0.272876,0.099435,360,1.3668,0.0485431,3.55159,0.006194553,0.023919,14.4968
380,6.5005,0.808878,12.4433,0.269397,0.0975075,380,1.39221,0.048947,3.51577,0.005338441,0.0243637,14.4801
400,6.379,0.792857,12.4292,0.264079,0.095685,400,1.41311,0.0500849,3.54431,0.006218616,0.0247294,14.4228
420,6.26425,0.782841,12.497,0.260638,0.09396375,420,1.43568,0.0514618,3.5845,0.00729042,0.0251243,14.3895
440,6.1575,0.772364,12.5435,0.257084,0.0923625,440,1.45632,0.0524095,3.59877,0.00770998,0.0254856,14.3476
460,6.05875,0.763132,12.5955,0.253934,0.09088125,460,1.47103,0.0513842,3.49307,0.004861448,0.0257431,14.2602
480,5.96725,0.755396,12.659,0.251274,0.08950875,480,1.48328,0.0516542,3.48243,0.004480892,0.0259574,14.1618
500,5.884,0.752561,12.7899,0.250151,0.08826,500,1.48957,0.0512643,3.44156,0.002138769,0.0260674,14.0234
520,5.799,0.736784,12.7054,0.245026,0.086985,520,1.48839,0.0525277,3.52916,0.006119162,0.0260469,13.8099
540,5.72325,0.741,12.9472,0.246096,0.08584875,540,1.481,0.0567155,3.82953,0.0116986,0.0259176,13.5619
560,5.648,0.734019,12.9961,0.243711,0.08472,560,1.48041,0.06843488,4.62271,0.0192225,0.0259071,13.3781
580,5.574,0.724698,13.0014,0.24061,0.08361,580,1.47377,0.0806114,5.46973,0.0244948,0.025791,13.1437
600,5.50675,0.719098,13.0585,0.23868,0.08260125,600,1.47836,0.0787186,5.32474,0.0237419,0.0258712,13.0255
620,5.44425,0.713539,13.1063,0.236774,0.08166375,620,1.47822,0.0841386,5.6919,0.0257876,0.0258688,12.8765
640,5.38675,0.707803,13.1397,0.234827,0.08080125,640,1.47555,0.08758,5.93542,0.02701432,0.0258221,12.7175
660,5.327,0.702945,13.1959,0.233151,0.079905,660,1.48099,0.0898581,6.06745,0.0277839,0.0259173,12.6227
680,5.272,0.700476,13.2867,0.232214,0.07908,680,1.48366,0.100898,6.8006,0.0313316,0.0259641,12.515
700,5.22025,0.692027,13.2566,0.229457,0.07830375,700,1.48907,0.0902809,6.06291,0.0279126,0.0260587,12.4373
720,5.17,0.688866,13.3243,0.228325,0.07755,720,1.49021,0.0828347,5.55859,0.0252665,0.0260787,12.327
740,5.123,0.689262,13.4543,0.228307,0.076845,740,1.48989,0.0857879,5.758,0.0263461,0.0260731,12.2123
760,5.07625,0.684692,13.4881,0.226757,0.07614375,760,1.49149,0.08457704,5.67064,0.0259039,0.0261011,12.1139
780,5.03475,0.681882,13.5435,0.225759,0.07552125,780,1.49469,0.0799564,5.34935,0.0241486,0.0261571,12.0407
800,4.99,0.683965,13.7067,0.226267,0.07485,800,1.49549,0.0774908,5.18165,0.0231589,0.026171,11.94
820,4.95225,0.687435,13.8813,0.227214,0.07428375,820,1.4956,0.0763294,5.1036,0.0226783,0.026173,11.8505
840,4.9135,0.680639,13.8524,0.225002,0.0737025,840,1.49755,0.0696984,4.65417,0.01967707,0.0262071,11.7731
860,4.87675,0.684846,14.0431,0.226187,0.07315125,860,1.50256,0.0684671,4.55668,0.0190112,0.0262949,11.7242
880,4.8445,0.684371,14.1268,0.225934,0.0726675,880,1.50353,0.0665576,4.42675,0.0179935,0.0263118,11.6542
900,4.8105,0.681413,14.1651,0.224923,0.0721575,900,1.50862,0.06526026,4.32582,0.0172011,0.0264009,11.6116
920,4.78375,0.686031,14.3409,0.226266,0.07175625,920,1.51213,0.0658605,4.35547,0.0174976,0.0264623,11.5739
940,4.75225,0.680921,14.3284,0.224595,0.07128375,940,1.51124,0.0670204,4.43478,0.0181518,0.0264468,11.4909
960,4.7235,0.689922,14.6062,0.227267,0.0708525,960,1.51144,0.0722718,4.78165,0.0207779,0.0264502,11.4229
980,4.69675,0.685928,14.6043,0.225972,0.07045125,980,1.50795,0.0755596,5.01076,0.0222724,0.0263891,11.3319
1000,4.67125,0.68485,14.661,0.225533,0.07006875,1000,1.50775,0.08143876,5.40134,0.0246643,0.0263856,11.2689
1020,4.65075,0.684892,14.7265,0.225483,0.06976125,1020,1.50481,0.08852,5.88247,0.02727261,0.0263342,11.1976
1040,4.62825,0.684935,14.799,0.225441,0.06942375,1040,1.50544,0.09985921,6.6332,0.03101131,0.0263453,11.1481
1060,4.61225,0.68867,14.9313,0.226554,0.06918375,,,,,,,
1080,4.59625,0.684226,14.8866,0.225124,0.06894375,,,,,,,
1100,4.58475,0.684213,14.9237,0.225081,0.06877125,,,,,,,
1120,4.578,0.685525,14.9743,0.225487,0.06867,,,,,,,
1140,4.58025,0.684085,14.9355,0.225024,0.06870375,,,,,,,
1160,4.58525,0.66925,14.5957,0.22047,0.06877875,,,,,,,
1180,4.59825,0.667855,14.5241,0.220087,0.06897375,,,,,,,