Folder: graphite-modeling/data/LQG_putty/graphite-putty samples/Specific Heat/Graphite

Note: README.md
# graphite-modeling

Impact of surface properties on effective thermal conductivity of coated graphite

File: sample1.csv
#EXPORTTYPE:                 ,DATA COMPARE                 ,
#FILE:                       ,sample1.ngb-ds3              ,
#FORMAT:                     ,NETZSCH5                     ,
#FTYPE:                      ,ANSI                         ,
#IDENTITY:                   ,graphite                     ,
#DECIMAL:                    ,POINT                        ,
#SEPARATOR:                  ,COMMA                        ,
#MTYPE:                      ,CP                           ,
#INSTRUMENT:                 ,NETZSCH STA 449F3            ,
#PROJECT:                    ,Gen3CSP                      ,
#DATE/TIME:                  ,12/9/2022 11:00:47 AM (UTC-5),
#CORR. FILE:                 ,baseline2.ngb-bs3            ,
#TEMPCAL:                    ,TCALZERO.TCX                 ,
#SENSITIVITY:                ,SENSZERO.EXX                 ,
#LABORATORY:                 ,STEEL                        ,
#OPERATOR:                   ,MJA                          ,
#REMARK:                     ,                             ,
#SAMPLE:                     ,sample1                      ,
#SAMPLE MASS /mg:            ,51,
#MATERIAL:                   ,                             ,
#REFERENCE:                  ,                             ,
#REFERENCE MASS /mg:         ,0,
#TYPE OF CRUCIBLE:           ,PtRh20 85 �l, with lid
#SAMPLE CRUCIBLE MASS /mg:   ,0,
#REFERENCE CRUCIBLE MASS /mg:,0,
#DSC RANGE /�V:              ,5000,
#TG RANGE /mg:               ,35000,
#TAU-R:                      ,---                          ,
#CORR. CODE:                 ,0,
#EXO:                        ,-1,
#RANGE:                      ,100�C/15.0(K/min)/1180�C     ,
#SEGMENT:                    ,S5/7                         ,
#SEG. 5:                     ,100�C/15.0(K/min)/1180�C     ,
,,
##Temp./C,Cp(5)/(J/(g*K)),
138.004,-0.79727,
141.212,-1.21126,
144.421,-1.52756,
147.629,-1.77915,
150.837,-1.97764,
154.046,-2.12667,
157.254,-2.23885,
160.462,-2.3111,
163.6705,1.05495,
166.879,1.0573,
170.087,1.06057,
173.295,1.0634,
176.504,1.06709,
179.712,1.07067,
182.92,1.0754,
186.129,1.08071,
189.337,1.08584,
192.545,1.09203,
195.754,1.09819,
198.962,1.10601,
202.17,1.11227,
205.379,1.1198,
208.587,1.12798,
211.795,1.1357,
215.004,1.14405,
218.212,1.15188,
221.42,1.15859,
224.628,1.16614,
227.837,1.17345,
231.045,1.1807,
234.253,1.18786,
237.462,1.19476,
240.67,1.2006,
243.878,1.20762,
247.087,1.2133,
250.295,1.21936,
253.503,1.22458,
256.712,1.22997,
259.92,1.23406,
263.1282,1.23949,
266.337,1.24536,
269.545,1.25081,
272.753,1.25728,
275.961,1.26338,
279.17,1.27,
282.378,1.27665,
285.586,1.28246,
288.7947,1.28804,
292.003,1.29283,
295.211,1.29861,
298.42,1.30335,
301.628,1.30908,
304.836,1.31499,
308.045,1.32035,
311.253,1.32465,
314.4612,1.33064,
317.67,1.33651,
320.878,1.34137,
324.086,1.34774,
327.294,1.35337,
330.503,1.35868,
333.711,1.36341,
336.919,1.36648,
340.1277,1.37,
343.336,1.37297,
346.544,1.37473,
349.753,1.37794,
352.961,1.38282,
356.169,1.38643,
359.378,1.39183,
362.586,1.3968,
365.794,1.40179,
369.003,1.40723,
372.211,1.41264,
375.419,1.41723,
378.627,1.42237,
381.836,1.42724,
385.044,1.43108,
388.2524,1.43421,
391.461,1.43712,
394.669,1.44169,
397.877,1.44614,
401.086,1.44969,
404.294,1.45437,
407.502,1.45939,
410.711,1.46253,
413.9189,1.46698,
417.127,1.47089,
420.336,1.47337,
423.544,1.47526,
426.752,1.47693,
429.96,1.48014,
433.169,1.48341,
436.377,1.48752,
439.5854,1.49202,
442.794,1.50052,
446.002,1.50645,
449.21,1.50921,
452.419,1.51297,
455.627,1.51295,
458.835,1.51128,
462.044,1.50865,
465.2519,1.5084,
468.46,1.50857,
471.669,1.50926,
474.877,1.51115,
478.085,1.51533,
481.293,1.52015,
484.502,1.52297,
487.71,1.52497,
490.918,1.52783,
494.127,1.52703,
497.335,1.52725,
500.543,1.52785,
503.752,1.52815,
506.96,1.53153,
510.168,1.53463,
513.3766,1.53626,
516.585,1.53918,
519.793,1.54134,
523.002,1.54425,
526.21,1.5444,
529.418,1.54573,
532.626,1.54825,
535.835,1.5502,
539.0431,1.55495,
542.251,1.55719,
545.46,1.55887,
548.668,1.56208,
551.876,1.56257,
555.085,1.56397,
558.293,1.56378,
561.501,1.56403,
564.7096,1.56361,
567.918,1.5644,
571.126,1.5639,
574.335,1.56474,
577.543,1.56612,
580.751,1.56773,
583.959,1.5704,
587.168,1.57251,
590.3761,1.5748,
593.584,1.57593,
596.793,1.5788,
600.001,1.58198,
603.209,1.58257,
606.418,1.5849,
609.626,1.58633,
612.834,1.5898,
616.043,1.59034,
619.251,1.59389,
622.459,1.59601,
625.668,1.60033,
628.876,1.60151,
632.084,1.60421,
635.292,1.60386,
638.501,1.60478,
641.709,1.60584,
644.917,1.60689,
648.126,1.606,
651.334,1.60837,
654.542,1.60706,
657.751,1.60908,
660.959,1.6108,
664.1673,1.61385,
667.376,1.61548,
670.584,1.61787,
673.792,1.62086,
677.001,1.62213,
680.209,1.62391,
683.417,1.6241,
686.625,1.62646,
689.8338,1.62562,
693.042,1.62564,
696.25,1.6271,
699.459,1.62867,
702.667,1.63014,
705.875,1.63171,
709.084,1.63421,
712.292,1.63553,
715.5003,1.63644,
718.709,1.6409,
721.917,1.64241,
725.125,1.64434,
728.334,1.64676,
731.542,1.64803,
734.75,1.64786,
737.958,1.65143,
741.1668,1.65054,
744.375,1.65306,
747.583,1.65139,
750.792,1.6541,
754,1.65643,
757.208,1.65816,
760.417,1.65939,
763.625,1.65957,
766.833,1.66049,
770.042,1.66105,
773.25,1.66419,
776.458,1.66746,
779.667,1.66925,
782.875,1.668,
786.083,1.66681,
789.2915,1.66901,
792.5,1.67009,
795.708,1.67116,
798.916,1.67442,
802.125,1.6744,
805.333,1.67733,
808.541,1.67634,
811.75,1.67798,
814.958,1.67867,
818.166,1.67898,
821.375,1.68039,
824.583,1.68169,
827.791,1.6823,
831,1.68236,
834.208,1.68511,
837.416,1.68669,
840.6245,1.68855,
843.833,1.68567,
847.041,1.68812,
850.249,1.68954,
853.458,1.69208,
856.666,1.69153,
859.874,1.69256,
863.083,1.69109,
866.291,1.69362,
869.499,1.69213,
872.708,1.6897,
875.916,1.68824,
879.124,1.68882,
882.333,1.68858,
885.541,1.68747,
888.749,1.68797,
891.958,1.68973,
895.166,1.68729,
898.374,1.68541,
901.582,1.68249,
904.791,1.68365,
907.999,1.681,
911.207,1.67961,
914.4157,1.67848,
917.624,1.67521,
920.832,1.67541,
924.041,1.66967,
927.249,1.66676,
930.457,1.6634,
933.666,1.66547,
936.874,1.66051,
940.0822,1.65915,
943.291,1.65655,
946.499,1.65442,
949.707,1.64897,
952.915,1.64417,
956.124,1.64191,
959.332,1.64005,
962.54,1.63848,
965.7487,1.63732,
968.957,1.6319,
972.165,1.63232,
975.374,1.62686,
978.582,1.62433,
981.79,1.61843,
984.999,1.61672,
988.207,1.61896,
991.4152,1.61465,
994.624,1.61205,
997.832,1.60761,
1001.04,1.60357,
1004.25,1.59811,
1007.46,1.59674,
1010.67,1.5841,
1013.87,1.57942,
1017.08,1.57312,
1020.29,1.57179,
1023.5,1.56831,
1026.71,1.56261,
1029.91,1.56258,
1033.12,1.55857,
1036.33,1.55216,
1039.54,1.55038,
1042.75,1.54385,
1045.96,1.53938,
1049.16,1.54062,
1052.37,1.53636,
1055.58,1.52588,
1058.79,1.52035,
1062,1.51565,
1065.21,1.51119,
1068.41,1.50958,
1071.62,1.50384,
1074.83,1.49759,
1078.04,1.49196,
1081.25,1.48754,
1084.46,1.48301,
1087.66,1.47858,
1090.87,1.47321,
1094.08,1.46499,
1097.29,1.45429,
1099.98,1.44664,

File: sample2.csv
#EXPORTTYPE:                 ,DATA COMPARE                  ,
#FILE:                       ,sample2.ngb-ds3               ,
#FORMAT:                     ,NETZSCH5                      ,
#FTYPE:                      ,ANSI                          ,
#IDENTITY:                   ,graphite                      ,
#DECIMAL:                    ,POINT                         ,
#SEPARATOR:                  ,COMMA                         ,
#MTYPE:                      ,CP                            ,
#INSTRUMENT:                 ,NETZSCH STA 449F3             ,
#PROJECT:                    ,Gen3CSP                       ,
#DATE/TIME:                  ,12/12/2022 10:05:54 AM (UTC-5),
#CORR. FILE:                 ,baseline2.ngb-bs3             ,
#TEMPCAL:                    ,TCALZERO.TCX                  ,
#SENSITIVITY:                ,SENSZERO.EXX                  ,
#LABORATORY:                 ,STEEL                         ,
#OPERATOR:                   ,MJA                           ,
#REMARK:                     ,                              ,
#SAMPLE:                     ,sample2                       ,
#SAMPLE MASS /mg:            ,48.8,
#MATERIAL:                   ,                              ,
#REFERENCE:                  ,                              ,
#REFERENCE MASS /mg:         ,0,
#TYPE OF CRUCIBLE:           ,PtRh20 85 �l, with lid
#SAMPLE CRUCIBLE MASS /mg:   ,0,
#REFERENCE CRUCIBLE MASS /mg:,0,
#DSC RANGE /�V:              ,5000,
#TG RANGE /mg:               ,35000,
#TAU-R:                      ,---                           ,
#CORR. CODE:                 ,0,
#EXO:                        ,-1,
#RANGE:                      ,100�C/15.0(K/min)/1180�C      ,
#SEGMENT:                    ,S5/7                          ,
#SEG. 5:                     ,100�C/15.0(K/min)/1180�C      ,
,,
##Temp./C,Cp(5)/(J/(g*K)),
150.2568,-0.46783,
153.426,-0.46783,
156.594,-0.46783,
159.763,-0.46783,
162.932,1.05517,
166.1,1.05591,
169.269,1.05664,
172.438,1.05729,
175.606,1.05796,
178.775,1.0593,
181.944,1.06031,
185.113,1.06158,
188.281,1.06309,
191.45,1.0654,
194.619,1.0673,
197.787,1.07041,
200.956,1.07468,
204.125,1.08006,
207.293,1.08695,
210.462,1.09618,
213.631,1.10603,
216.8,1.11651,
219.968,1.12683,
223.137,1.13471,
226.3057,1.14311,
229.4744,1.15091,
232.643,1.15746,
235.812,1.16451,
238.981,1.1706,
242.149,1.17586,
245.318,1.18133,
248.487,1.18658,
251.655,1.19148,
254.824,1.19574,
257.993,1.20161,
261.161,1.20634,
264.33,1.21139,
267.499,1.21647,
270.668,1.22033,
273.836,1.22542,
277.005,1.23093,
280.174,1.23581,
283.342,1.24201,
286.511,1.24711,
289.68,1.2524,
292.848,1.25802,
296.017,1.26248,
299.186,1.26761,
302.3546,1.27255,
305.5233,1.27765,
308.692,1.283,
311.861,1.28652,
315.029,1.29037,
318.198,1.29378,
321.367,1.29777,
324.536,1.30316,
327.704,1.3079,
330.873,1.31246,
334.042,1.3171,
337.21,1.32211,
340.379,1.32734,
343.548,1.33079,
346.716,1.33527,
349.885,1.3396,
353.054,1.34252,
356.223,1.34621,
359.391,1.34987,
362.56,1.35297,
365.729,1.35709,
368.897,1.36156,
372.066,1.36555,
375.235,1.3692,
378.403,1.37452,
381.5722,1.38026,
384.7409,1.38735,
387.9096,1.39185,
391.078,1.39523,
394.247,1.39719,
397.416,1.39798,
400.584,1.40101,
403.753,1.40246,
406.922,1.40534,
410.091,1.40784,
413.259,1.41149,
416.428,1.41414,
419.597,1.41752,
422.765,1.41991,
425.934,1.42229,
429.103,1.42634,
432.271,1.43012,
435.44,1.43334,
438.609,1.4365,
441.778,1.44036,
444.946,1.44371,
448.115,1.44707,
451.284,1.44981,
454.452,1.45265,
457.621,1.45502,
460.7898,1.45637,
463.9585,1.45647,
467.1272,1.45572,
470.296,1.45523,
473.465,1.45496,
476.633,1.45682,
479.802,1.45774,
482.971,1.46001,
486.139,1.46245,
489.308,1.46185,
492.477,1.4619,
495.646,1.46146,
498.814,1.46336,
501.983,1.4652,
505.152,1.46699,
508.32,1.46924,
511.489,1.47094,
514.658,1.47156,
517.826,1.47158,
520.995,1.47314,
524.164,1.47234,
527.333,1.47334,
530.501,1.47336,
533.67,1.47268,
536.839,1.46972,
540.0074,1.46662,
543.1761,1.46458,
546.3448,1.46238,
549.514,1.46087,
552.682,1.45923,
555.851,1.45784,
559.02,1.45742,
562.188,1.45783,
565.357,1.45908,
568.526,1.45915,
571.694,1.4611,
574.863,1.46125,
578.032,1.46385,
581.201,1.46363,
584.369,1.46363,
587.538,1.46221,
590.707,1.45949,
593.875,1.45797,
597.044,1.4575,
600.213,1.45859,
603.381,1.45901,
606.55,1.46162,
609.719,1.46283,
612.888,1.46254,
616.056,1.46622,
619.225,1.46811,
622.3937,1.46982,
625.5624,1.47065,
628.731,1.47038,
631.9,1.47156,
635.069,1.47194,
638.237,1.47315,
641.406,1.47317,
644.575,1.47489,
647.743,1.47405,
650.912,1.47537,
654.081,1.47704,
657.249,1.47492,
660.418,1.47531,
663.587,1.47597,
666.756,1.47461,
669.924,1.47606,
673.093,1.47722,
676.262,1.47771,
679.43,1.47892,
682.599,1.48023,
685.768,1.4805,
688.936,1.48204,
692.105,1.48283,
695.274,1.48284,
698.4426,1.48187,
701.6113,1.48254,
704.78,1.485,
707.949,1.48516,
711.117,1.48474,
714.286,1.48814,
717.455,1.48864,
720.624,1.48961,
723.792,1.49108,
726.961,1.4882,
730.13,1.49012,
733.298,1.49048,
736.467,1.49302,
739.636,1.49328,
742.804,1.49561,
745.973,1.49599,
749.142,1.49675,
752.311,1.50013,
755.479,1.50052,
758.648,1.50423,
761.817,1.50393,
764.985,1.50115,
768.154,1.50105,
771.323,1.5026,
774.491,1.50584,
777.6602,1.50775,
780.8289,1.50639,
783.9976,1.50823,
787.166,1.508,
790.335,1.51191,
793.504,1.5134,
796.672,1.51664,
799.841,1.51501,
803.01,1.51595,
806.179,1.5157,
809.347,1.51578,
812.516,1.51523,
815.685,1.51453,
818.853,1.51579,
822.022,1.51878,
825.191,1.52107,
828.359,1.52197,
831.528,1.52434,
834.697,1.52564,
837.866,1.52675,
841.034,1.52858,
844.203,1.52985,
847.372,1.53057,
850.54,1.53192,
853.709,1.53302,
856.8778,1.53247,
860.0465,1.5347,
863.2152,1.5351,
866.384,1.53487,
869.553,1.53377,
872.721,1.53673,
875.89,1.53721,
879.059,1.53953,
882.227,1.54276,
885.396,1.54205,
888.565,1.54211,
891.734,1.54534,
894.902,1.54847,
898.071,1.54799,
901.24,1.55086,
904.408,1.55232,
907.577,1.5552,
910.746,1.55918,
913.914,1.55715,
917.083,1.55535,
920.252,1.55275,
923.421,1.55095,
926.589,1.55126,
929.758,1.55055,
932.927,1.55181,
936.0954,1.55262,
939.2641,1.55422,
942.4328,1.55228,
945.602,1.55283,
948.77,1.55172,
951.939,1.55506,
955.108,1.55272,
958.276,1.55249,
961.445,1.55098,
964.614,1.55461,
967.782,1.55334,
970.951,1.55364,
974.12,1.55168,
977.289,1.55287,
980.457,1.55211,
983.626,1.55423,
986.795,1.55129,
989.963,1.55523,
993.132,1.55841,
996.301,1.55567,
999.469,1.556,
1002.64,1.55207,
1005.81,1.5535,
1008.98,1.55021,
1012.14,1.54824,
1015.313,1.54476,
1018.48,1.54226,
1021.65,1.54617,
1024.82,1.54253,
1027.99,1.5381,
1031.16,1.53728,
1034.33,1.53483,
1037.49,1.53595,
1040.66,1.53787,
1043.83,1.53934,
1047,1.53775,
1050.17,1.53959,
1053.34,1.53834,
1056.51,1.53723,
1059.67,1.53928,
1062.84,1.53215,
1066.01,1.53328,
1069.18,1.53362,
1072.35,1.53151,
1075.52,1.53048,
1078.69,1.52965,
1081.86,1.52453,
1085.02,1.52127,
1088.19,1.52146,
1091.36,1.521,
1094.53,1.52606,
1097.7,1.5253,
1100,1.52224,

File: sample3.csv
#EXPORTTYPE:                 ,DATA COMPARE                 ,
#FILE:                       ,sample3.ngb-ds3              ,
#FORMAT:                     ,NETZSCH5                     ,
#FTYPE:                      ,ANSI                         ,
#IDENTITY:                   ,graphite                     ,
#DECIMAL:                    ,POINT                        ,
#SEPARATOR:                  ,COMMA                        ,
#MTYPE:                      ,CP                           ,
#INSTRUMENT:                 ,NETZSCH STA 449F3            ,
#PROJECT:                    ,Gen3CSP                      ,
#DATE/TIME:                  ,12/12/2022 3:10:24 PM (UTC-5),
#CORR. FILE:                 ,baseline2.ngb-bs3            ,
#TEMPCAL:                    ,TCALZERO.TCX                 ,
#SENSITIVITY:                ,SENSZERO.EXX                 ,
#LABORATORY:                 ,STEEL                        ,
#OPERATOR:                   ,MJA                          ,
#REMARK:                     ,                             ,
#SAMPLE:                     ,sample3                      ,
#SAMPLE MASS /mg:            ,33.9,
#MATERIAL:                   ,                             ,
#REFERENCE:                  ,                             ,
#REFERENCE MASS /mg:         ,0,
#TYPE OF CRUCIBLE:           ,PtRh20 85 �l, with lid
#SAMPLE CRUCIBLE MASS /mg:   ,0,
#REFERENCE CRUCIBLE MASS /mg:,0,
#DSC RANGE /�V:              ,5000,
#TG RANGE /mg:               ,35000,
#TAU-R:                      ,---                          ,
#CORR. CODE:                 ,0,
#EXO:                        ,-1,
#RANGE:                      ,100�C/15.0(K/min)/1180�C     ,
#SEGMENT:                    ,S5/7                         ,
#SEG. 5:                     ,100�C/15.0(K/min)/1180�C     ,
,,
##Temp./C,Cp(5)/(J/(g*K)),
138.118,-1.06831,
141.326,-1.52822,
144.535,-1.87319,
147.743,-2.13650,
150.951,-2.33782,
154.16,-2.48204,
157.368,-2.58603,
160.576,-2.66763,
163.7845,1.19341,
166.993,1.18433,
170.201,1.17774,
173.409,1.17007,
176.618,1.16343,
179.826,1.15698,
183.034,1.15136,
186.243,1.14553,
189.451,1.14256,
192.659,1.14018,
195.868,1.14126,
199.076,1.14709,
202.284,1.15597,
205.493,1.17207,
208.701,1.18945,
211.909,1.20847,
215.1175,1.22668,
218.326,1.24264,
221.534,1.25351,
224.742,1.26368,
227.951,1.27337,
231.159,1.27975,
234.367,1.28476,
237.576,1.28996,
240.784,1.29374,
243.992,1.29781,
247.201,1.30158,
250.409,1.30642,
253.617,1.30958,
256.826,1.31519,
260.034,1.32014,
263.2422,1.32644,
266.451,1.33095,
269.659,1.33829,
272.867,1.34507,
276.075,1.35035,
279.284,1.35603,
282.492,1.36213,
285.7,1.36795,
288.9087,1.37363,
292.117,1.37668,
295.325,1.38339,
298.534,1.38800,
301.742,1.39173,
304.95,1.39576,
308.159,1.40158,
311.367,1.40692,
314.5752,1.41175,
317.784,1.41709,
320.992,1.42413,
324.2,1.42920,
327.408,1.43498,
330.617,1.44145,
333.825,1.44748,
337.033,1.45113,
340.2417,1.45402,
343.45,1.45533,
346.658,1.45655,
349.867,1.45783,
353.075,1.45959,
356.283,1.46208,
359.492,1.46649,
362.7,1.47142,
365.908,1.47706,
369.117,1.48266,
372.325,1.48770,
375.533,1.49393,
378.741,1.49912,
381.95,1.50279,
385.158,1.50724,
388.366,1.51018,
391.575,1.51340,
394.783,1.51714,
397.991,1.51925,
401.2,1.52150,
404.408,1.52370,
407.616,1.52987,
410.825,1.53307,
414.0329,1.53835,
417.241,1.54226,
420.45,1.54421,
423.658,1.54602,
426.866,1.54769,
430.074,1.55058,
433.283,1.55217,
436.491,1.55362,
439.6994,1.55662,
442.908,1.55993,
446.116,1.56231,
449.324,1.56357,
452.533,1.56350,
455.741,1.56880,
458.949,1.57145,
462.158,1.57215,
465.3659,1.57689,
468.574,1.57884,
471.783,1.57826,
474.991,1.57839,
478.199,1.58151,
481.407,1.57940,
484.616,1.57700,
487.824,1.57513,
491.0324,1.57464,
494.241,1.57287,
497.449,1.56894,
500.657,1.56779,
503.866,1.56561,
507.074,1.56505,
510.282,1.56574,
513.491,1.56692,
516.699,1.56669,
519.907,1.56563,
523.116,1.56399,
526.324,1.56089,
529.532,1.55581,
532.74,1.55288,
535.949,1.54993,
539.1571,1.54763,
542.365,1.54575,
545.574,1.54371,
548.782,1.54345,
551.99,1.54345,
555.199,1.54272,
558.407,1.54157,
561.615,1.53904,
564.8236,1.53648,
568.032,1.53221,
571.24,1.52875,
574.449,1.52433,
577.657,1.52304,
580.865,1.51736,
584.073,1.51841,
587.282,1.51666,
590.4901,1.51811,
593.698,1.51666,
596.907,1.51779,
600.115,1.51667,
603.323,1.51325,
606.532,1.51358,
609.74,1.51181,
612.948,1.51208,
616.1566,1.51412,
619.365,1.51323,
622.573,1.51227,
625.782,1.51342,
628.99,1.51598,
632.198,1.51382,
635.406,1.51752,
638.615,1.51634,
641.823,1.51636,
645.031,1.51477,
648.24,1.51736,
651.448,1.51963,
654.656,1.51666,
657.865,1.51589,
661.073,1.51450,
664.2813,1.51100,
667.49,1.50670,
670.698,1.50394,
673.906,1.50457,
677.115,1.50305,
680.323,1.50407,
683.531,1.50520,
686.739,1.50657,
689.9478,1.50560,
693.156,1.50565,
696.364,1.50525,
699.573,1.50471,
702.781,1.50407,
705.989,1.50218,
709.198,1.50524,
712.406,1.50555,
715.6143,1.50500,
718.823,1.50579,
722.031,1.50491,
725.239,1.50178,
728.448,1.50173,
731.656,1.50031,
734.864,1.50153,
738.072,1.50387,
741.2808,1.50282,
744.489,1.50127,
747.697,1.50035,
750.906,1.50076,
754.114,1.50112,
757.322,1.49943,
760.531,1.49769,
763.739,1.49497,
766.947,1.49598,
770.156,1.49422,
773.364,1.49501,
776.572,1.49827,
779.781,1.49736,
782.989,1.49545,
786.197,1.49598,
789.405,1.49384,
792.614,1.49630,
795.822,1.49378,
799.03,1.49492,
802.239,1.49149,
805.447,1.49197,
808.655,1.49017,
811.864,1.49081,
815.072,1.49023,
818.28,1.48699,
821.489,1.49001,
824.697,1.49040,
827.905,1.49045,
831.114,1.48999,
834.322,1.48706,
837.53,1.48841,
840.7385,1.48906,
843.947,1.48828,
847.155,1.48495,
850.363,1.48327,
853.572,1.48367,
856.78,1.48133,
859.988,1.47804,
863.197,1.48074,
866.405,1.47871,
869.613,1.47535,
872.822,1.47170,
876.03,1.46710,
879.238,1.46704,
882.447,1.46642,
885.655,1.46245,
888.863,1.46131,
892.0715,1.45965,
895.28,1.45462,
898.488,1.45527,
901.696,1.44987,
904.905,1.44968,
908.113,1.45828,
911.321,1.45910,
914.53,1.44878,
917.738,1.44222,
920.946,1.43620,
924.155,1.42912,
927.363,1.42934,
930.571,1.42682,
933.78,1.42636,
936.988,1.41824,
940.1962,1.41522,
943.405,1.41277,
946.613,1.40617,
949.821,1.39965,
953.029,1.39036,
956.238,1.38344,
959.446,1.37424,
962.654,1.37553,
965.8627,1.37702,
969.071,1.37480,
972.279,1.37075,
975.488,1.36400,
978.696,1.36048,
981.904,1.35354,
985.113,1.35051,
988.321,1.35106,
991.5292,1.34657,
994.738,1.34083,
997.946,1.33059,
1001.15,1.32189,
1004.36,1.30969,
1007.57,1.30074,
1010.78,1.28605,
1013.99,1.28073,
1017.2,1.27422,
1020.4,1.26806,
1023.61,1.26246,
1026.82,1.25380,
1030.03,1.24599,
1033.24,1.24299,
1036.45,1.23793,
1039.65,1.22861,
1042.86,1.23284,
1046.07,1.23237,
1049.28,1.23030,
1052.49,1.22846,
1055.7,1.22285,
1058.9,1.21235,
1062.11,1.20786,
1065.32,1.20314,
1068.53,1.19631,
1071.74,1.18844,
1074.95,1.16816,
1078.15,1.15819,
1081.36,1.14255,
1084.57,1.12231,
1087.78,1.10975,
1090.99,1.09471,
1094.2,1.07924,
1097.4,1.06172,
1100,1.04863,