Folder: graphite-modeling/data/LQG_putty/graphite-putty samples/Specific Heat/Putty

Note: README.md
# graphite-modeling

Impact of surface properties on effective thermal conductivity of coated graphite

File: sample1.csv
#EXPORTTYPE:                 ,DATA COMPARE
#FILE:                       ,sample1.ngb-ds3
#FORMAT:                     ,NETZSCH5
#FTYPE:                      ,ANSI
#IDENTITY:                   ,putty
#DECIMAL:                    ,POINT
#SEPARATOR:                  ,COMMA
#MTYPE:                      ,CP
#INSTRUMENT:                 ,NETZSCH STA 449F3
#PROJECT:                    ,Gen3CSP
#DATE/TIME:                  ,12/13/2022 3:59:26 PM (UTC-5)
#CORR. FILE:                 ,baseline2.ngb-bs3
#TEMPCAL:                    ,TCALZERO.TCX
#SENSITIVITY:                ,SENSZERO.EXX
#LABORATORY:                 ,STEEL
#OPERATOR:                   ,MJA
#REMARK:                     ,
#SAMPLE:                     ,sample1
#SAMPLE MASS /mg:            ,35.9
#MATERIAL:                   ,
#REFERENCE:                  ,
#REFERENCE MASS /mg:         ,0
#TYPE OF CRUCIBLE:           ,PtRh20 85 �l, with lid
#SAMPLE CRUCIBLE MASS /mg:   ,0
#REFERENCE CRUCIBLE MASS /mg:,0
#DSC RANGE /�V:              ,5000
#TG RANGE /mg:               ,35000
#TAU-R:                      ,---
#CORR. CODE:                 ,00
#EXO:                        ,-1
#RANGE:                      ,25�C/15.0(K/min)/1180�C
#SEGMENT:                    ,S1/7
#SEG. 1:                     ,25�C/15.0(K/min)/1180�C
,,
##Temp./C,Cp(1)/(J/(g*K))
  29.15000,      0.97931
  32.97225,      1.03771
  36.79450,      1.06299
  40.61675,      1.07923
  44.43900,      1.09232
  48.26125,      1.10589
  52.08349,      1.12106
  55.90574,      1.13984
  59.72799,      1.16823
  63.55024,      1.21696
  67.37249,      1.27389
  71.19474,      1.32507
  75.01699,      1.38129
  78.83924,      1.45495
  82.66149,      1.50913
  86.48374,      1.50809
  90.30599,      1.50844
  94.12824,      1.51592
  97.95049,      1.52530
 101.773,      1.53392
 105.595,      1.54271
 109.417,      1.55270
 113.239,      1.55967
 117.062,      1.56585
 120.884,      1.57220
 124.706,      1.57694
 128.528,      1.58319
 132.351,      1.59134
 136.173,      1.59994
 139.995,      1.60779
 143.817,      1.61500
 147.64,      1.62158
 151.462,      1.62994
 155.284,      1.63766
 159.106,      1.64743
 162.929,      1.65464
 166.751,      1.66291
 170.573,      1.67108
 174.395,      1.67857
 178.218,      1.68474
 182.04,      1.69052
 185.862,      1.69908
 189.684,      1.70614
 193.507,      1.71574
 197.329,      1.72541
 201.151,      1.73365
 204.973,      1.74359
 208.796,      1.75655
 212.618,      1.76596
 216.44,      1.77898
 220.262,      1.79218
 224.085,      1.80276
 227.907,      1.81455
 231.729,      1.82526
 235.551,      1.83318
 239.374,      1.84006
 243.196,      1.84432
 247.018,      1.84691
 250.84,      1.84521
 254.663,      1.84494
 258.485,      1.84287
 262.307,      1.84054
 266.129,      1.83668
 269.952,      1.83375
 273.774,      1.82492
 277.596,      1.81698
 281.418,      1.80273
 285.241,      1.78675
 289.063,      1.76336
 292.885,      1.73650
 296.707,      1.70332
 300.53,      1.66614
 304.352,      1.62105
 308.174,      1.56711
 311.996,      1.50642
 315.819,      1.43827
 319.641,      1.36471
 323.463,      1.38821
 327.285,      1.39740
 331.108,      1.46872
 334.93,      1.43244
 338.752,      1.37827
 342.574,      1.33843
 346.397,      1.27952
 350.219,      1.22818
 354.041,      1.19204
 357.863,      1.17972
 361.686,      1.19879
 365.508,      1.26383
 369.33,      1.34374
 373.152,      1.41497
 376.975,      1.46103
 380.797,      1.46020
 384.619,      1.39750
 388.441,      1.29921
 392.264,      1.16203
 396.086,      0.99526
 399.908,      0.79919
 403.73,      0.61371
 407.553,      0.39093
 411.375,      0.17765
 415.197,-9.612447e-02
 419.019,     -0.23275
 422.842,     -0.33389
 426.664,     -0.37951
 430.486,     -0.39345
 434.308,     -0.41291
 438.131,     -0.45195
 441.953,     -0.51600
 445.775,     -0.56523
 449.597,     -0.60835
 453.42,     -0.63833
 457.242,     -0.64741
 461.064,     -0.64040
 464.886,     -0.56910
 468.709,     -0.36494
 472.531,     -0.25806
 476.353,     -0.26351
 480.175,     -0.28396
 483.998,     -0.30341
 487.82,     -0.30960
 491.642,     -0.30783
 495.464,     -0.30330
 499.287,     -0.29551
 503.109,     -0.28384
 506.931,     -0.27157
 510.753,     -0.26752
 514.576,     -0.27637
 518.398,     -0.29852
 522.22,     -0.33351
 526.042,     -0.37724
 529.865,     -0.42929
 533.687,     -0.47642
 537.509,     -0.50238
 541.331,     -0.53867
 545.154,     -0.59913
 548.976,     -0.83458
 552.798,     -0.94837
 556.62,     -1.02237
 560.443,     -1.05576
 564.265,     -1.11670
 568.087,     -1.18052
 571.909,     -1.32154
 575.732,     -1.46853
 579.554,     -1.56133
 583.376,     -1.60738
 587.198,     -1.63999
 591.021,     -1.67398
 594.843,     -1.70924
 598.665,     -1.75365
 602.487,     -1.92089
 606.31,     -1.98563
 610.132,     -1.99065
 613.954,     -2.00837
 617.776,     -2.02147
 621.599,     -2.02842
 625.421,     -2.03323
 629.243,     -2.03783
 633.065,     -2.04180
 636.888,     -2.04397
 640.71,     -2.04026
 644.532,     -2.02818
 648.354,     -2.02528
 652.177,     -2.01506
 655.999,     -2.00141
 659.821,     -1.99325
 663.643,     -1.98416
 667.466,     -1.98157
 671.288,     -1.98350
 675.11,     -1.98929
 678.932,     -1.99803
 682.755,     -2.01714
 686.577,     -2.02888
 690.399,     -2.04539
 694.221,     -2.06959
 698.044,     -2.08910
 701.866,     -2.11765
 705.688,     -2.14187
 709.51,     -2.16714
 713.333,     -2.19862
 717.155,     -2.23392
 720.977,     -2.27306
 724.799,     -2.30815
 728.622,     -2.33178
 732.444,     -2.35313
 736.266,     -2.38521
 740.088,     -2.41594
 743.911,     -2.43486
 747.733,     -2.46816
 751.555,     -2.50010
 755.377,     -2.51882
 759.2,     -2.54149
 763.022,     -2.55523
 766.844,     -2.56994
 770.666,     -2.58526
 774.489,     -2.60510
 778.311,     -2.63443
 782.133,     -2.64538
 785.955,     -2.66172
 789.778,     -2.67312
 793.6,     -2.68215
 797.422,     -2.69184
 801.244,     -2.70134
 805.067,     -2.71275
 808.889,     -2.72835
 812.711,     -2.74064
 816.533,     -2.73279
 820.356,     -2.75408
 824.178,     -2.76121
 828,     -2.76424
 831.822,     -2.77549
 835.645,     -2.80169
 839.467,     -2.80737
 843.289,     -2.81313
 847.111,     -2.82998
 850.934,     -2.85225
 854.756,     -2.86268
 858.578,     -2.86553
 862.4,     -2.87840
 866.223,     -2.89019
 870.045,     -2.90441
 873.867,     -2.91460
 877.689,     -2.92805
 881.512,     -2.91698
 885.334,     -2.94334
 889.156,     -2.96939
 892.978,     -2.97958
 896.801,     -2.99058
 900.623,     -2.99833
 904.445,     -3.00328
 908.267,     -3.01780
 912.09,     -3.04329
 915.912,     -3.05917
 919.734,     -3.08453
 923.556,     -3.11256
 927.379,     -3.17058
 931.201,     -3.26668
 935.023,     -3.35120
 938.845,     -3.41231
 942.668,     -3.45518
 946.49,     -3.48494
 950.312,     -3.48215
 954.134,     -3.49439
 957.957,     -3.49731
 961.779,     -3.49360
 965.601,     -3.47507
 969.423,     -3.47774
 973.246,     -3.47100
 977.068,     -3.46710
 980.89,     -3.47209
 984.712,     -3.47676
 988.535,     -3.48810
 992.357,     -3.50689
 996.179,     -3.52838
1000,     -3.54198
1003.82,     -3.55771
1007.65,     -3.58356
1011.47,     -3.61230
1015.29,     -3.63988
1019.11,     -3.66722
1022.93,     -3.69534
1026.76,     -3.71893
1030.58,     -3.75639
1034.4,     -3.78947
1038.22,     -3.81929
1042.05,     -3.84832
1045.87,     -3.89158
1049.69,     -3.92908
1053.51,     -3.97248
1057.34,     -4.00128
1061.16,     -4.03890
1064.98,     -4.07484
1068.8,     -4.13178
1072.62,     -4.18122
1076.45,     -4.21873
1080.27,     -4.26578
1084.09,     -4.32517
1087.91,     -4.37892
1091.74,     -4.44057
1095.56,     -4.47776
1099.38,     -4.52835
1103.2,     -4.58070
1107.02,     -4.65781
1110.85,     -4.70663
1114.67,     -4.75761
1118.49,     -4.80991
1122.31,     -4.86032
1126.14,     -4.89925
1129.96,     -4.94020
1133.78,     -5.13909
1137.6,     -5.37854
1141.42,     -5.58969
1145.25,     -5.80603
1149.07,     -6.02731
1152.89,     -6.23315
1156.71,     -6.42281
1160.54,     -6.54601
1164.36,     -6.68351
1168.18,     -6.77018
1172,     -6.83789
1174.18,     -6.87309